# B752 filter from Dave & Anne
#      WAVELENGTH      THROUGHPUT
#       angstroms         
7100 0.00
7102 0.00
7107 0.00
7109 0.00
7111 0.24
7113 0.23
7115 0.23
7117 0.24
7119 0.25
7121 0.25
7123 0.25
7125 0.25
7127 0.27
7129 0.25
7131 0.25
7133 0.27
7135 0.28
7137 0.27
7139 0.28
7141 0.27
7143 0.28
7145 0.28
7147 0.28
7149 0.30
7151 0.29
7153 0.30
7155 0.31
7157 0.32
7159 0.34
7161 0.33
7163 0.33
7165 0.34
7167 0.34
7169 0.35
7171 0.37
7173 0.37
7175 0.37
7177 0.37
7179 0.38
7181 0.39
7183 0.39
7185 0.40
7187 0.40
7189 0.42
7191 0.42
7193 0.43
7195 0.45
7197 0.46
7199 0.48
7201 0.49
7203 0.50
7205 0.53
7207 0.53
7209 0.55
7211 0.57
7213 0.58
7215 0.59
7217 0.60
7219 0.61
7221 0.61
7223 0.63
7225 0.65
7227 0.66
7229 0.68
7231 0.72
7233 0.75
7235 0.78
7237 0.81
7239 0.84
7241 0.87
7243 0.91
7245 0.95
7247 0.97
7249 1.00
7251 1.03
7253 1.07
7255 1.10
7257 1.14
7259 1.19
7261 1.25
7263 1.30
7265 1.35
7267 1.41
7269 1.48
7271 1.55
7273 1.64
7275 1.71
7277 1.78
7279 1.87
7281 1.97
7283 2.06
7285 2.15
7287 2.27
7289 2.40
7291 2.53
7293 2.68
7295 2.82
7297 2.99
7299 3.15
7301 3.34
7303 3.51
7305 3.71
7307 3.94
7309 4.16
7311 4.42
7313 4.66
7315 4.97
7317 5.29
7319 5.62
7321 6.00
7323 6.41
7325 6.82
7327 7.26
7329 7.75
7331 8.24
7333 8.82
7335 9.40
7337 9.97
7339 10.64
7341 11.30
7343 12.08
7345 12.83
7347 13.71
7349 14.55
7351 15.54
7353 16.52
7355 17.51
7357 18.61
7359 19.70
7361 21.01
7363 22.20
7365 23.52
7367 24.78
7369 26.20
7371 27.61
7373 28.95
7375 30.46
7377 31.81
7379 33.34
7381 34.70
7383 36.23
7385 37.64
7387 39.09
7389 40.49
7391 41.82
7393 43.25
7395 44.52
7397 45.81
7399 46.97
7401 48.25
7403 49.38
7405 50.47
7407 51.45
7409 52.39
7411 53.17
7413 53.92
7415 54.69
7417 55.29
7419 55.81
7421 56.20
7423 56.66
7425 56.94
7427 57.12
7429 57.39
7431 57.57
7433 57.66
7435 57.81
7437 57.93
7439 57.94
7441 57.95
7443 57.92
7445 57.93
7447 57.89
7449 57.80
7451 57.68
7453 57.43
7455 57.32
7457 57.18
7459 57.04
7461 56.87
7463 56.68
7465 56.62
7467 56.42
7469 56.27
7471 56.17
7473 56.11
7475 56.04
7477 55.92
7479 55.92
7481 55.85
7483 55.77
7485 55.69
7487 55.65
7489 55.54
7491 55.62
7493 55.50
7495 55.44
7497 55.44
7499 55.34
7501 55.23
7503 55.14
7505 55.09
7507 55.01
7509 54.91
7511 54.80
7513 54.65
7515 54.51
7517 54.38
7519 54.22
7521 54.03
7523 53.91
7525 53.68
7527 53.50
7529 53.31
7531 53.16
7533 52.94
7535 52.74
7537 52.52
7539 52.34
7541 52.10
7543 51.84
7545 51.66
7547 51.43
7549 51.18
7551 50.99
7553 50.78
7555 50.54
7557 50.23
7559 50.07
7561 49.87
7563 49.66
7565 49.46
7567 49.28
7569 49.09
7571 48.90
7573 48.68
7575 48.58
7577 48.41
7579 48.23
7581 48.06
7583 47.89
7585 47.74
7587 47.60
7589 47.40
7591 47.30
7593 47.07
7595 46.89
7597 46.75
7599 46.53
7601 46.31
7603 46.14
7605 45.92
7607 45.57
7609 45.31
7611 44.94
7613 44.64
7615 44.25
7617 43.85
7619 43.39
7621 42.90
7623 42.39
7625 41.81
7627 41.19
7629 40.50
7631 39.83
7633 39.06
7635 38.36
7637 37.48
7639 36.68
7641 35.79
7643 34.90
7645 33.97
7647 32.97
7649 31.98
7651 30.96
7653 29.88
7655 28.83
7657 27.81
7659 26.68
7661 25.69
7663 24.58
7665 23.60
7667 22.43
7669 21.47
7671 20.40
7673 19.47
7675 18.45
7677 17.52
7679 16.54
7681 15.65
7683 14.82
7685 14.01
7687 13.24
7689 12.47
7691 11.76
7693 11.06
7695 10.42
7697 9.80
7699 9.24
7701 8.64
7703 8.15
7705 7.67
7707 7.23
7709 6.77
7711 6.40
7713 6.00
7715 5.68
7717 5.33
7719 5.03
7721 4.74
7723 4.48
7725 4.24
7727 4.02
7729 3.80
7731 3.60
7733 3.42
7735 3.24
7737 3.08
7739 2.91
7741 2.76
7743 2.63
7745 2.51
7747 2.37
7749 2.26
7751 2.15
7753 2.04
7755 1.95
7757 1.86
7759 1.76
7761 1.70
7763 1.62
7765 1.55
7767 1.49
7769 1.43
7771 1.35
7773 1.31
7775 1.26
7777 1.22
7779 1.16
7781 1.12
7783 1.07
7785 1.03
7787 1.00
7789 0.96
7791 0.93
7793 0.89
7795 0.86
7797 0.82
7799 0.80
7801 0.77
7803 0.74
7805 0.71
7807 0.71
7809 0.68
7811 0.66
7813 0.64
7815 0.63
7817 0.61
7819 0.60
7821 0.58
7823 0.56
7825 0.55
7827 0.54
7829 0.53
7831 0.52
7833 0.51
7835 0.49
7837 0.48
7839 0.48
7841 0.46
7843 0.45
7845 0.44
7847 0.44
7849 0.42
7851 0.41
7853 0.39
7855 0.39
7857 0.39
7859 0.38
7861 0.37
7863 0.35
7865 0.36
7867 0.35
7869 0.34
7871 0.33
7873 0.33
7875 0.32
7877 0.32
7879 0.32
7881 0.31
7883 0.31
7885 0.31
7887 0.30
7889 0.30
7891 0.30
7893 0.29
7895 0.29
7897 0.29
7899 0.28
7901 0.17
