# CFHT12K poor-red I-band instrumental transmission curve from M. Gladders  
#      WAVELENGTH      THROUGHPUT
#       angstroms         
      7000.00      0.00000
      7010.00   0.00202002
      7020.00   0.00403087
      7030.00   0.00603255
      7040.00   0.00802505
      7050.00    0.0100084
      7060.00    0.0119825
      7070.00    0.0139475
      7080.00    0.0159033
      7090.00    0.0178500
      7100.00    0.0197874
      7110.00    0.0368509
      7120.00    0.0538349
      7130.00    0.0707394
      7140.00    0.0875644
      7150.00     0.104310
      7160.00     0.120976
      7170.00     0.137562
      7180.00     0.154069
      7190.00     0.170497
      7200.00     0.186845
      7210.00     0.212353
      7220.00     0.237738
      7230.00     0.262999
      7240.00     0.288137
      7250.00     0.313151
      7260.00     0.338042
      7270.00     0.362810
      7280.00     0.387454
      7290.00     0.411974
      7300.00     0.436372
      7310.00     0.453351
      7320.00     0.470242
      7330.00     0.487046
      7340.00     0.503761
      7350.00     0.520389
      7360.00     0.536928
      7370.00     0.553380
      7380.00     0.569744
      7390.00     0.586020
      7400.00     0.602208
      7410.00     0.610274
      7420.00     0.618291
      7430.00     0.626261
      7440.00     0.634183
      7450.00     0.642057
      7460.00     0.649883
      7470.00     0.657662
      7480.00     0.665393
      7490.00     0.673076
      7500.00     0.680711
      7510.00     0.683075
      7520.00     0.685419
      7530.00     0.687742
      7540.00     0.690043
      7550.00     0.692324
      7560.00     0.694583
      7570.00     0.696822
      7580.00     0.699039
      7590.00     0.701235
      7600.00     0.703411
      7610.00     0.703021
      7620.00     0.702623
      7630.00     0.702218
      7640.00     0.701804
      7650.00     0.701384
      7660.00     0.700955
      7670.00     0.700519
      7680.00     0.700076
      7690.00     0.699624
      7700.00     0.699165
      7710.00     0.697637
      7720.00     0.696107
      7730.00     0.694574
      7740.00     0.693040
      7750.00     0.691504
      7760.00     0.689966
      7770.00     0.688426
      7780.00     0.686884
      7790.00     0.685341
      7800.00     0.683795
      7810.00     0.682248
      7820.00     0.680698
      7830.00     0.679147
      7840.00     0.677593
      7850.00     0.676038
      7860.00     0.674481
      7870.00     0.672922
      7880.00     0.671361
      7890.00     0.669798
      7900.00     0.668234
      7910.00     0.666667
      7920.00     0.665098
      7930.00     0.663528
      7940.00     0.661955
      7950.00     0.660381
      7960.00     0.658805
      7970.00     0.657227
      7980.00     0.655647
      7990.00     0.654065
      8000.00     0.652481
      8010.00     0.649155
      8020.00     0.645830
      8030.00     0.642504
      8040.00     0.639178
      8050.00     0.635853
      8060.00     0.632527
      8070.00     0.629201
      8080.00     0.625875
      8090.00     0.622550
      8100.00     0.619224
      8110.00     0.615282
      8120.00     0.611348
      8130.00     0.607419
      8140.00     0.603498
      8150.00     0.599583
      8160.00     0.595674
      8170.00     0.591773
      8180.00     0.587878
      8190.00     0.583989
      8200.00     0.580108
      8210.00     0.576232
      8220.00     0.572364
      8230.00     0.568502
      8240.00     0.564647
      8250.00     0.560799
      8260.00     0.556957
      8270.00     0.553122
      8280.00     0.549293
      8290.00     0.545471
      8300.00     0.541656
      8310.00     0.536749
      8320.00     0.531861
      8330.00     0.526994
      8340.00     0.522147
      8350.00     0.517319
      8360.00     0.512511
      8370.00     0.507724
      8380.00     0.502956
      8390.00     0.498209
      8400.00     0.493481
      8410.00     0.488257
      8420.00     0.483060
      8430.00     0.477889
      8440.00     0.472745
      8450.00     0.467627
      8460.00     0.462536
      8470.00     0.457472
      8480.00     0.452434
      8490.00     0.447423
      8500.00     0.442439
      8510.00     0.436998
      8520.00     0.431591
      8530.00     0.426217
      8540.00     0.420876
      8550.00     0.415568
      8560.00     0.410293
      8570.00     0.405052
      8580.00     0.399844
      8590.00     0.394670
      8600.00     0.389528
      8610.00     0.381722
      8620.00     0.373990
      8630.00     0.366330
      8640.00     0.358744
      8650.00     0.351231
      8660.00     0.343791
      8670.00     0.336424
      8680.00     0.329130
      8690.00     0.321909
      8700.00     0.314762
      8710.00     0.304357
      8720.00     0.294078
      8730.00     0.283926
      8740.00     0.273900
      8750.00     0.264001
      8760.00     0.254227
      8770.00     0.244581
      8780.00     0.235060
      8790.00     0.225666
      8800.00     0.216399
      8810.00     0.205725
      8820.00     0.195204
      8830.00     0.184836
      8840.00     0.174622
      8850.00     0.164560
      8860.00     0.154651
      8870.00     0.144895
      8880.00     0.135292
      8890.00     0.125843
      8900.00     0.116546
      8910.00     0.109151
      8920.00     0.101876
      8930.00    0.0947210
      8940.00    0.0876855
      8950.00    0.0807697
      8960.00    0.0739737
      8970.00    0.0672974
      8980.00    0.0607408
      8990.00    0.0543040
      9000.00    0.0479868
      9010.00    0.0438051
      9020.00    0.0396829
      9030.00    0.0356204
      9040.00    0.0316175
      9050.00    0.0276742
      9060.00    0.0237905
      9070.00    0.0199665
      9080.00    0.0162021
      9090.00    0.0124973
      9100.00   0.00885209
      9110.00   0.00789981
      9120.00   0.00696243
      9130.00   0.00603996
      9140.00   0.00513239
      9150.00   0.00423973
      9160.00   0.00336197
      9170.00   0.00249912
      9180.00   0.00165117
      9190.00  0.000818134
      9200.00      0.00000
