# Keck LRIS narrowband filter NB9148 from Keck website
#      WAVELENGTH      THROUGHPUT
#       angstroms                
7821.15  2.207790E-5
7822.41  5.283644E-5
7823.68  2.212383E-5
7824.94  6.721258E-5
7826.21  6.956853E-5
7827.47  4.399943E-5
7828.74  4.201040E-5
7830.00  3.827037E-5
7831.27  3.709139E-5
7832.53  4.111473E-5
7833.80  5.474881E-5
7835.07  4.920216E-5
7836.33  9.878296E-5
7837.60  1.133139E-4
7838.86  6.301769E-5
7840.13  7.457794E-5
7841.39  6.825841E-5
7842.66  6.044010E-5
7843.92  6.133461E-5
7845.19  5.352167E-5
7846.45  6.034268E-5
7847.72  7.520353E-5
7848.98  4.989145E-5
7850.25  5.651197E-5
7851.51  4.473905E-5
7852.78  2.819315E-5
7854.04  4.137885E-5
7855.31  4.031979E-5
7856.57  6.714632E-5
7857.84  6.671611E-5
7859.11  2.409339E-5
7860.37  2.846198E-5
7861.64  5.291689E-5
7862.90  5.856088E-5
7864.17  3.402802E-5
7865.43  5.249957E-5
7866.70  3.918455E-5
7867.96  5.484301E-5
7869.23  2.564614E-5
7870.49  2.994373E-5
7871.76  2.609071E-5
7873.02  2.862818E-5
7874.29  6.118187E-5
7875.55  7.099739E-5
7876.82  6.049084E-5
7878.08  4.236375E-5
7879.35  2.795427E-5
7880.62  3.773970E-5
7881.88  4.065450E-5
7883.15  5.542749E-5
7884.41  4.440122E-5
7885.68  4.879558E-5
7886.94  8.543918E-5
7888.21  5.735731E-5
7889.47  6.536664E-5
7890.74  7.226377E-5
7892.00  8.158326E-5
7893.27  6.989481E-5
7894.53  8.708115E-5
7895.80  7.310457E-5
7897.06  6.293422E-5
7898.33  4.396273E-5
7899.59  4.538189E-5
7900.86  4.206559E-5
7902.13  1.935291E-5
7903.39  2.799820E-5
7904.66  3.711864E-5
7905.92  4.881715E-5
7907.19  5.618911E-5
7908.45  8.782145E-5
7909.72  7.268325E-5
7910.98  8.012716E-5
7912.25  8.583892E-5
7913.51  7.466164E-5
7914.78  5.581960E-5
7916.04  7.215849E-5
7917.31  7.097411E-5
7918.57  4.072449E-5
7919.84  6.700925E-5
7921.10  7.406158E-5
7922.37  5.620996E-5
7923.64  2.993012E-5
7924.90  6.922260E-5
7926.17  6.555444E-5
7927.43  5.364004E-5
7928.70  6.218498E-5
7929.96  6.833772E-5
7931.23  6.883574E-5
7932.49  4.729892E-5
7933.76  3.546958E-5
7935.02  2.970467E-5
7936.29  6.110546E-5
7937.55  4.205143E-5
7938.82  5.502324E-5
7940.08  3.502419E-5
7941.35  6.237056E-5
7942.61  5.869953E-5
7943.88  7.539678E-5
7945.15  7.548571E-5
7946.41  5.694514E-5
7947.68  5.178729E-5
7948.94  7.012652E-5
7950.21  5.676369E-5
7951.47  7.381271E-5
7952.74  4.204268E-5
7954.00  4.999570E-5
7955.27  2.823049E-5
7956.53  2.998564E-5
7957.80  4.320924E-5
7959.06  4.027218E-5
7960.33  3.984418E-5
7961.59  5.608203E-5
7962.86  7.246424E-5
7964.12  6.125648E-5
7965.39  4.393524E-5
7966.65  4.562252E-5
7967.92  4.424513E-5
7969.19  5.443889E-5
7970.45  7.058497E-5
7971.72  5.723780E-5
7972.98  7.232976E-5
7974.25  8.380129E-5
7975.51  3.911728E-5
7976.78  3.301816E-5
7978.04  3.949178E-5
7979.31  5.795504E-5
7980.57  6.009928E-5
7981.84  5.834565E-5
7983.10  4.697705E-5
7984.37  3.757525E-5
7985.63  4.086170E-5
7986.90  6.022532E-5
7988.16  7.478782E-5
7989.43  8.816224E-5
7990.70  8.849581E-5
7991.96  6.016125E-5
7993.23  7.733911E-5
7994.49  7.865514E-5
7995.76  6.051273E-5
7997.02  8.360767E-5
7998.29  1.008924E-4
7999.55  7.505150E-5
8000.82  5.359920E-5
8002.08  6.264011E-5
8003.35  7.285000E-5
8004.61  5.048786E-5
8005.88  3.728376E-5
8007.14  5.533741E-5
8008.41  8.632177E-5
8009.67  7.831687E-5
8010.94  7.127628E-5
8012.21  7.610531E-5
8013.47  6.284103E-5
8014.74  6.534459E-5
8016.00  4.868384E-5
8017.27  5.575865E-5
8018.53  8.708092E-5
8019.80  5.755228E-5
8021.06  5.752153E-5
8022.33  5.165864E-5
8023.59  6.426805E-5
8024.86  9.954238E-5
8026.12  5.373373E-5
8027.39  4.121900E-5
8028.65  2.545663E-5
8029.92  6.530274E-5
8031.18  7.221706E-5
8032.45  5.998823E-5
8033.72  8.316298E-5
8034.98  1.086504E-4
8036.25  6.786660E-5
8037.51  1.081752E-4
8038.78  7.136590E-5
8040.04  8.710433E-5
8041.31  7.225883E-5
8042.57  6.970867E-5
8043.84  1.000396E-4
8045.10  8.051711E-5
8046.37  6.027970E-5
8047.63  7.338474E-5
8048.90  9.908046E-5
8050.16  6.195949E-5
8051.43  5.581824E-5
8052.69  7.330857E-5
8053.96  6.081622E-5
8055.23  6.643296E-5
8056.49  8.321505E-5
8057.76  8.919736E-5
8059.02  8.644357E-5
8060.29  8.457321E-5
8061.55  8.926811E-5
8062.82  8.465158E-5
8064.08  7.957913E-5
8065.35  7.395819E-5
8066.61  8.207318E-5
8067.88  9.211565E-5
8069.14  8.224163E-5
8070.41  6.188700E-5
8071.67  7.986812E-5
8072.94  8.613030E-5
8074.20  6.368376E-5
8075.47  8.289381E-5
8076.73  8.346664E-5
8078.00  6.194624E-5
8079.27  7.114774E-5
8080.53  1.002969E-4
8081.80  1.023800E-4
8083.06  8.037434E-5
8084.33  7.683795E-5
8085.59  6.213097E-5
8086.86  6.601693E-5
8088.12  9.234035E-5
8089.39  1.020563E-4
8090.65  5.327901E-5
8091.92  4.358794E-5
8093.18  5.105563E-5
8094.45  7.291332E-5
8095.71  1.029547E-4
8096.98  7.430048E-5
8098.24  9.372941E-5
8099.51  7.584987E-5
8100.78  7.348431E-5
8102.04  7.015067E-5
8103.31  8.812556E-5
8104.57  7.990999E-5
8105.84  1.092290E-4
8107.10  1.004958E-4
8108.37  1.015927E-4
8109.63  9.021122E-5
8110.90  5.510238E-5
8112.16  6.317062E-5
8113.43  9.050551E-5
8114.69  1.199984E-4
8115.96  9.250162E-5
8117.22  1.208476E-4
8118.49  9.118239E-5
8119.75  7.608286E-5
8121.02  9.922708E-5
8122.29  9.522412E-5
8123.55  1.085298E-4
8124.82  9.930033E-5
8126.08  5.457762E-5
8127.35  1.024612E-4
8128.61  1.106941E-4
8129.88  8.193783E-5
8131.14  7.524082E-5
8132.41  9.529133E-5
8133.67  9.269348E-5
8134.94  1.041865E-4
8136.20  8.335990E-5
8137.47  1.026116E-4
8138.73  8.853558E-5
8140.00  8.586621E-5
8141.26  8.022579E-5
8142.53  8.592270E-5
8143.80  9.380827E-5
8145.06  1.035692E-4
8146.33  9.837803E-5
8147.59  9.531355E-5
8148.86  9.796728E-5
8150.12  8.350184E-5
8151.39  7.261897E-5
8152.65  7.750111E-5
8153.92  1.036398E-4
8155.18  9.298530E-5
8156.45  6.740476E-5
8157.71  9.576852E-5
8158.98  1.214699E-4
8160.24  1.298687E-4
8161.51  1.126837E-4
8162.77  8.625541E-5
8164.04  8.428268E-5
8165.31  9.739665E-5
8166.57  8.572290E-5
8167.84  6.266368E-5
8169.10  1.210139E-4
8170.37  1.003114E-4
8171.63  9.420347E-5
8172.90  1.172756E-4
8174.16  1.288329E-4
8175.43  9.424464E-5
8176.69  9.180402E-5
8177.96  9.578435E-5
8179.22  1.028621E-4
8180.49  1.155090E-4
8181.75  7.787452E-5
8183.02  1.151329E-4
8184.28  1.323761E-4
8185.55  1.003634E-4
8186.81  7.839701E-5
8188.08  1.005263E-4
8189.35  1.013340E-4
8190.61  1.196269E-4
8191.88  1.242963E-4
8193.14  9.012301E-5
8194.41  9.713119E-5
8195.67  8.788484E-5
8196.94  4.811023E-5
8198.20  1.000744E-4
8199.47  1.078993E-4
8200.73  1.012510E-4
8202.00  1.154097E-4
8203.26  1.339031E-4
8204.53  1.170708E-4
8205.79  9.221397E-5
8207.06  1.070361E-4
8208.32  1.245727E-4
8209.59  1.259354E-4
8210.86  1.241643E-4
8212.12  1.491138E-4
8213.39  1.057000E-4
8214.65  1.101564E-4
8215.92  1.221441E-4
8217.18  1.171600E-4
8218.45  1.051501E-4
8219.71  1.011884E-4
8220.98  8.968785E-5
8222.24  1.023791E-4
8223.51  1.195483E-4
8224.77  8.397030E-5
8226.04  1.258686E-4
8227.30  1.315793E-4
8228.57  1.230839E-4
8229.83  1.017256E-4
8231.10  1.192448E-4
8232.37  1.108183E-4
8233.63  9.444667E-5
8234.90  8.787226E-5
8236.16  1.010980E-4
8237.43  6.734039E-5
8238.69  1.010360E-4
8239.96  1.028621E-4
8241.22  1.232952E-4
8242.49  1.125557E-4
8243.75  8.975915E-5
8245.02  5.300262E-5
8246.28  1.435104E-4
8247.55  1.491902E-4
8248.81  9.092291E-5
8250.08  1.139074E-4
8251.34  1.815703E-4
8252.61  1.612398E-4
8253.88  1.256086E-4
8255.14  1.339726E-4
8256.41  1.665543E-4
8257.67  1.587924E-4
8258.94  1.513977E-4
8260.20  1.573257E-4
8261.47  1.226628E-4
8262.73  1.191693E-4
8264.00  1.227105E-4
8265.26  1.374766E-4
8266.53  1.382293E-4
8267.79  1.368895E-4
8269.06  1.265672E-4
8270.32  1.126544E-4
8271.59  1.088851E-4
8272.85  1.440001E-4
8274.12  1.666941E-4
8275.39  1.375745E-4
8276.65  1.290045E-4
8277.92  1.590626E-4
8279.18  1.736939E-4
8280.45  1.354726E-4
8281.71  1.467660E-4
8282.98  1.299929E-4
8284.24  1.410368E-4
8285.51  1.353134E-4
8286.77  1.467955E-4
8288.04  1.655058E-4
8289.30  1.386176E-4
8290.57  1.478944E-4
8291.83  1.982146E-4
8293.10  1.584397E-4
8294.36  1.482615E-4
8295.63  1.592928E-4
8296.89  1.273110E-4
8298.16  1.211890E-4
8299.43  1.983671E-4
8300.69  1.617120E-4
8301.96  1.262537E-4
8303.22  1.671445E-4
8304.49  1.657346E-4
8305.75  1.450337E-4
8307.02  1.613007E-4
8308.28  1.674453E-4
8309.55  1.437283E-4
8310.81  1.431335E-4
8312.08  1.846055E-4
8313.34  1.675087E-4
8314.61  1.646748E-4
8315.87  1.732317E-4
8317.14  1.500213E-4
8318.40  1.504956E-4
8319.67  1.698001E-4
8320.94  1.806067E-4
8322.20  1.630976E-4
8323.47  1.301037E-4
8324.73  1.843903E-4
8326.00  2.242218E-4
8327.26  2.039400E-4
8328.53  1.964352E-4
8329.79  1.807900E-4
8331.06  1.594573E-4
8332.32  1.783318E-4
8333.59  2.389845E-4
8334.85  2.114688E-4
8336.12  1.614177E-4
8337.38  1.458491E-4
8338.65  1.528768E-4
8339.91  1.677987E-4
8341.18  1.706983E-4
8342.45  1.777443E-4
8343.71  1.439696E-4
8344.98  1.510470E-4
8346.24  1.655714E-4
8347.51  2.169557E-4
8348.77  2.228803E-4
8350.04  1.947559E-4
8351.30  1.846925E-4
8352.57  1.936328E-4
8353.83  1.541714E-4
8355.10  1.690659E-4
8356.36  1.951763E-4
8357.63  1.504703E-4
8358.89  1.626473E-4
8360.16  2.093673E-4
8361.42  2.253694E-4
8362.69  2.393863E-4
8363.96  1.929940E-4
8365.22  1.711877E-4
8366.49  1.914320E-4
8367.75  1.954686E-4
8369.02  2.258557E-4
8370.28  2.549393E-4
8371.55  2.302582E-4
8372.81  2.065641E-4
8374.08  2.148955E-4
8375.34  2.500285E-4
8376.61  2.175305E-4
8377.87  2.095613E-4
8379.14  2.240921E-4
8380.40  2.666397E-4
8381.67  2.356739E-4
8382.93  2.040795E-4
8384.20  2.403130E-4
8385.47  2.258560E-4
8386.73  2.259700E-4
8388.00  2.085743E-4
8389.26  2.345510E-4
8390.53  2.899136E-4
8391.79  2.659103E-4
8393.06  2.233081E-4
8394.32  2.398945E-4
8395.59  2.482654E-4
8396.85  2.341867E-4
8398.12  2.538440E-4
8399.38  2.519775E-4
8400.65  2.376153E-4
8401.91  2.505585E-4
8403.18  2.481773E-4
8404.44  2.395563E-4
8405.71  2.168620E-4
8406.97  2.298890E-4
8408.24  2.504888E-4
8409.51  2.481888E-4
8410.77  2.927594E-4
8412.04  2.517562E-4
8413.30  2.511819E-4
8414.57  2.465185E-4
8415.83  2.294940E-4
8417.10  3.069141E-4
8418.36  3.004712E-4
8419.63  2.513088E-4
8420.89  2.921435E-4
8422.16  2.753675E-4
8423.42  3.183447E-4
8424.69  2.898347E-4
8425.95  2.906055E-4
8427.22  2.813665E-4
8428.48  2.718215E-4
8429.75  3.012314E-4
8431.02  3.003067E-4
8432.28  2.372222E-4
8433.55  2.410323E-4
8434.81  2.925017E-4
8436.08  3.079678E-4
8437.34  2.997004E-4
8438.61  2.762086E-4
8439.87  2.909374E-4
8441.14  2.824946E-4
8442.40  3.119216E-4
8443.67  2.915323E-4
8444.93  2.782421E-4
8446.20  2.673378E-4
8447.46  2.522485E-4
8448.73  3.102859E-4
8449.99  3.105792E-4
8451.26  3.376596E-4
8452.53  3.354707E-4
8453.79  3.157366E-4
8455.06  3.203560E-4
8456.32  3.671251E-4
8457.59  3.352652E-4
8458.85  2.938314E-4
8460.12  2.957602E-4
8461.38  2.978665E-4
8462.65  2.997042E-4
8463.91  3.438923E-4
8465.18  3.518802E-4
8466.44  3.269626E-4
8467.71  3.135042E-4
8468.97  3.450690E-4
8470.24  3.569552E-4
8471.50  3.572879E-4
8472.77  3.693643E-4
8474.04  3.425646E-4
8475.30  3.561757E-4
8476.57  3.547420E-4
8477.83  3.635922E-4
8479.10  3.964394E-4
8480.36  3.642362E-4
8481.63  3.704568E-4
8482.89  3.193608E-4
8484.16  3.470496E-4
8485.42  3.827456E-4
8486.69  3.779419E-4
8487.95  3.604711E-4
8489.22  3.887707E-4
8490.48  3.810810E-4
8491.75  4.084500E-4
8493.01  3.683742E-4
8494.28  3.605417E-4
8495.55  3.012141E-4
8496.81  3.851873E-4
8498.08  3.730701E-4
8499.34  3.582204E-4
8500.61  4.122718E-4
8501.87  4.110986E-4
8503.14  3.500994E-4
8504.40  3.372906E-4
8505.67  3.910461E-4
8506.93  4.335952E-4
8508.20  4.095864E-4
8509.46  4.184804E-4
8510.73  4.164414E-4
8511.99  4.283921E-4
8513.26  4.285600E-4
8514.52  4.263129E-4
8515.79  3.851019E-4
8517.05  4.570617E-4
8518.32  4.512028E-4
8519.59  4.070095E-4
8520.85  3.731136E-4
8522.12  3.878497E-4
8523.38  4.402911E-4
8524.65  4.273492E-4
8525.91  4.451715E-4
8527.18  4.723808E-4
8528.44  4.676870E-4
8529.71  4.328963E-4
8530.97  4.552828E-4
8532.24  4.597283E-4
8533.50  4.749387E-4
8534.77  4.268593E-4
8536.03  4.109617E-4
8537.30  4.695281E-4
8538.56  4.833823E-4
8539.83  4.864523E-4
8541.10  4.750798E-4
8542.36  5.169465E-4
8543.63  4.874347E-4
8544.89  5.049129E-4
8546.16  4.870031E-4
8547.42  5.067205E-4
8548.69  5.281353E-4
8549.95  5.042482E-4
8551.22  5.028903E-4
8552.48  5.426077E-4
8553.75  5.362793E-4
8555.01  5.523032E-4
8556.28  5.532126E-4
8557.54  5.442592E-4
8558.81  5.760994E-4
8560.07  5.260590E-4
8561.34  5.244690E-4
8562.61  5.512534E-4
8563.87  5.510616E-4
8565.14  6.216239E-4
8566.40  5.688932E-4
8567.67  5.588514E-4
8568.93  5.728846E-4
8570.20  5.949406E-4
8571.46  6.272311E-4
8572.73  6.238788E-4
8573.99  6.099753E-4
8575.26  5.930810E-4
8576.52  6.501988E-4
8577.79  6.555273E-4
8579.05  5.924759E-4
8580.32  5.873734E-4
8581.58  6.020265E-4
8582.85  6.178211E-4
8584.12  6.160879E-4
8585.38  6.808163E-4
8586.65  6.400583E-4
8587.91  6.464743E-4
8589.18  6.557601E-4
8590.44  6.675596E-4
8591.71  6.585589E-4
8592.97  6.509022E-4
8594.24  6.825193E-4
8595.50  6.904200E-4
8596.77  7.138220E-4
8598.03  7.304425E-4
8599.30  6.909822E-4
8600.56  7.392247E-4
8601.83  7.244574E-4
8603.09  6.724857E-4
8604.36  7.493075E-4
8605.63  7.301383E-4
8606.89  7.003006E-4
8608.16  7.272062E-4
8609.42  7.421627E-4
8610.69  8.148304E-4
8611.95  8.094064E-4
8613.22  8.210368E-4
8614.48  7.770582E-4
8615.75  8.114344E-4
8617.01  7.676797E-4
8618.28  8.010399E-4
8619.54  9.152306E-4
8620.81  8.399067E-4
8622.07  8.104155E-4
8623.34  9.086744E-4
8624.60  8.494976E-4
8625.87  8.647029E-4
8627.13  8.775261E-4
8628.40  9.076509E-4
8629.67  8.740214E-4
8630.93  9.167133E-4
8632.20  8.994399E-4
8633.46  8.869704E-4
8634.73  9.090923E-4
8635.99  9.610621E-4
8637.26  9.627917E-4
8638.52  9.590499E-4
8639.79  9.881124E-4
8641.05  9.901414E-4
8642.32  9.966898E-4
8643.58  0.001011352
8644.85  0.001000457
8646.11  9.537814E-4
8647.38  0.001027646
8648.64  0.001044761
8649.91  0.00108025
8651.18  0.001096502
8652.44  0.001082979
8653.71  0.001040834
8654.97  0.001098112
8656.24  0.001099592
8657.50  0.001169173
8658.77  0.001082826
8660.03  0.001108097
8661.30  0.001195152
8662.56  0.001172065
8663.83  0.001153917
8665.09  0.001136629
8666.36  0.001200077
8667.62  0.001242097
8668.89  0.001240024
8670.15  0.001197672
8671.42  0.001230048
8672.69  0.001257615
8673.95  0.001268623
8675.22  0.00130232
8676.48  0.001352287
8677.75  0.001323009
8679.01  0.001303288
8680.28  0.001330822
8681.54  0.001309122
8682.81  0.001334568
8684.07  0.001315229
8685.34  0.001335339
8686.60  0.001416999
8687.87  0.001452258
8689.13  0.001442341
8690.40  0.00149528
8691.66  0.001436693
8692.93  0.001433394
8694.20  0.001437387
8695.46  0.001566074
8696.73  0.001512262
8697.99  0.001538447
8699.26  0.001562738
8700.52  0.001552027
8701.79  0.001570825
8703.05  0.001608186
8704.32  0.001597124
8705.58  0.001586266
8706.85  0.00164731
8708.11  0.001680282
8709.38  0.0016924
8710.64  0.001688915
8711.91  0.001753713
8713.17  0.00171111
8714.44  0.001748943
8715.71  0.001732137
8716.97  0.001811767
8718.24  0.001814831
8719.50  0.001832539
8720.77  0.001853392
8722.03  0.00183968
8723.30  0.002008599
8724.56  0.0019527
8725.83  0.001891313
8727.09  0.001901245
8728.36  0.002022534
8729.62  0.002075423
8730.89  0.002041529
8732.15  0.002097502
8733.42  0.002052992
8734.68  0.002075414
8735.95  0.002096788
8737.21  0.002109708
8738.48  0.002128386
8739.75  0.002134694
8741.01  0.002200175
8742.28  0.002215825
8743.54  0.002285325
8744.81  0.002274582
8746.07  0.002372867
8747.34  0.00234141
8748.60  0.00229302
8749.87  0.002404257
8751.13  0.002458856
8752.40  0.002442452
8753.66  0.002539303
8754.93  0.002500933
8756.19  0.002640108
8757.46  0.002597733
8758.72  0.002582194
8759.99  0.002615322
8761.26  0.002704229
8762.52  0.002704701
8763.79  0.002689394
8765.05  0.002722591
8766.32  0.002803268
8767.58  0.002738544
8768.85  0.002779756
8770.11  0.002857155
8771.38  0.002889147
8772.64  0.003006596
8773.91  0.00288743
8775.17  0.003032554
8776.44  0.003021138
8777.70  0.003087963
8778.97  0.003119154
8780.23  0.003077165
8781.50  0.003199981
8782.77  0.003253453
8784.03  0.003218169
8785.30  0.003237259
8786.56  0.003303591
8787.83  0.003291128
8789.09  0.003422104
8790.36  0.003495909
8791.62  0.003540394
8792.89  0.003456929
8794.15  0.003565513
8795.42  0.003621518
8796.68  0.003716799
8797.95  0.003703923
8799.21  0.003719143
8800.48  0.003747616
8801.74  0.003733913
8803.01  0.003831487
8804.28  0.003901017
8805.54  0.003982627
8806.81  0.003979494
8808.07  0.00398599
8809.34  0.003997599
8810.60  0.004122334
8811.87  0.004131367
8813.13  0.004245101
8814.40  0.004326488
8815.66  0.00425063
8816.93  0.004255571
8818.19  0.004363198
8819.46  0.004418219
8820.72  0.004516617
8821.99  0.004496936
8823.25  0.004520677
8824.52  0.004645409
8825.79  0.004673591
8827.05  0.004693868
8828.32  0.00480514
8829.58  0.004877333
8830.85  0.004899574
8832.11  0.005098457
8833.38  0.005078553
8834.64  0.005159452
8835.91  0.005190224
8837.17  0.005273472
8838.44  0.005527488
8839.70  0.005517952
8840.97  0.005465383
8842.23  0.005524488
8843.50  0.00570395
8844.76  0.005771978
8846.03  0.005869051
8847.29  0.005876334
8848.56  0.00596394
8849.83  0.00605902
8851.09  0.006091683
8852.36  0.006135055
8853.62  0.006364472
8854.89  0.006357408
8856.15  0.00639804
8857.42  0.006423801
8858.68  0.006533806
8859.95  0.006651641
8861.21  0.006637998
8862.48  0.006855079
8863.74  0.007066478
8865.01  0.007096887
8866.27  0.007191957
8867.54  0.007371972
8868.80  0.007440534
8870.07  0.007487403
8871.34  0.007582739
8872.60  0.007799409
8873.87  0.00790057
8875.13  0.007917957
8876.40  0.008009754
8877.66  0.008102772
8878.93  0.008422532
8880.19  0.008592919
8881.46  0.008595368
8882.72  0.008602611
8883.99  0.008731011
8885.25  0.009100902
8886.52  0.009152381
8887.78  0.009144172
8889.05  0.00939882
8890.31  0.00962322
8891.58  0.009746391
8892.85  0.009829515
8894.11  0.009933992
8895.38  0.01012377
8896.64  0.01035676
8897.91  0.01053631
8899.17  0.01080434
8900.44  0.01092827
8901.70  0.01100819
8902.97  0.01116769
8904.23  0.01145384
8905.50  0.01172636
8906.76  0.01188036
8908.03  0.01202812
8909.29  0.01219737
8910.56  0.01248037
8911.82  0.01272057
8913.09  0.01284631
8914.36  0.013024
8915.62  0.01332673
8916.89  0.01379092
8918.15  0.01409693
8919.42  0.01419574
8920.68  0.01437797
8921.95  0.01468933
8923.21  0.01496796
8924.48  0.01513317
8925.74  0.01553744
8927.01  0.0157821
8928.27  0.01628283
8929.54  0.01676027
8930.80  0.01701738
8932.07  0.01722812
8933.33  0.01775201
8934.60  0.01820214
8935.87  0.01841195
8937.13  0.01867692
8938.40  0.01915889
8939.66  0.01966444
8940.93  0.02016437
8942.19  0.02078512
8943.46  0.02106691
8944.72  0.02138493
8945.99  0.02198651
8947.25  0.02274591
8948.52  0.02356479
8949.78  0.02392698
8951.05  0.02442847
8952.31  0.02528612
8953.58  0.02579291
8954.84  0.02678512
8956.11  0.02768125
8957.37  0.02829507
8958.64  0.02917916
8959.91  0.03041994
8961.17  0.03154192
8962.44  0.03255976
8963.70  0.03385857
8964.97  0.03488911
8966.23  0.03615074
8967.50  0.03751242
8968.76  0.03898332
8970.03  0.04048012
8971.29  0.04220207
8972.56  0.0438652
8973.82  0.04572351
8975.09  0.0478561
8976.35  0.04984546
8977.62  0.05194991
8978.88  0.05388069
8980.15  0.05642567
8981.42  0.05844165
8982.68  0.06094158
8983.95  0.06371149
8985.21  0.06579739
8986.48  0.06856087
8987.74  0.07166439
8989.01  0.07511216
8990.27  0.07872616
8991.54  0.08232707
8992.80  0.08578105
8994.07  0.08970232
8995.33  0.09413192
8996.60  0.09906062
8997.86  0.1038619
8999.13  0.1091706
9000.39  0.1145131
9001.66  0.1207212
9002.93  0.1273982
9004.19  0.1340293
9005.46  0.1417592
9006.72  0.1499385
9007.99  0.1589775
9009.25  0.1683522
9010.52  0.1781769
9011.78  0.1888034
9013.05  0.2002658
9014.31  0.2124328
9015.58  0.2252579
9016.84  0.2389044
9018.11  0.2530339
9019.37  0.2676445
9020.64  0.2834534
9021.90  0.2997967
9023.17  0.3160438
9024.44  0.3332546
9025.70  0.3507139
9026.97  0.3688711
9028.23  0.3873318
9029.50  0.4053669
9030.76  0.4236857
9032.03  0.4406275
9033.29  0.4585251
9034.56  0.4757977
9035.82  0.4917005
9037.09  0.5080494
9038.35  0.5233206
9039.62  0.5366007
9040.88  0.5500364
9042.15  0.5620849
9043.41  0.5729256
9044.68  0.5826672
9045.95  0.5923769
9047.21  0.5994556
9048.48  0.6053832
9049.74  0.6119375
9051.01  0.6172879
9052.27  0.6214542
9053.54  0.6252375
9054.80  0.6291373
9056.07  0.6322343
9057.33  0.6340627
9058.60  0.6362548
9059.86  0.6375535
9061.13  0.6394344
9062.39  0.6407487
9063.66  0.6425225
9064.92  0.6441591
9066.19  0.6457088
9067.45  0.6476299
9068.72  0.649895
9069.99  0.6518173
9071.25  0.653906
9072.52  0.6558105
9073.78  0.6574305
9075.05  0.6589952
9076.31  0.6609703
9077.58  0.6622695
9078.84  0.6638692
9080.11  0.666003
9081.37  0.6678569
9082.64  0.6691337
9083.90  0.6707637
9085.17  0.6723325
9086.43  0.6726552
9087.70  0.6743947
9088.96  0.6750321
9090.23  0.6756905
9091.50  0.6760312
9092.76  0.6759022
9094.03  0.6758344
9095.29  0.6762362
9096.56  0.6754416
9097.82  0.6758678
9099.09  0.6754488
9100.35  0.6748711
9101.62  0.6740124
9102.88  0.6730829
9104.15  0.6718681
9105.41  0.6714957
9106.68  0.6700034
9107.94  0.6690794
9109.21  0.6677024
9110.47  0.6660597
9111.74  0.665092
9113.01  0.6634722
9114.27  0.6611552
9115.54  0.6600138
9116.80  0.6597077
9118.07  0.6589814
9119.33  0.6573102
9120.60  0.6557736
9121.86  0.6549872
9123.13  0.6538059
9124.39  0.6531939
9125.66  0.6518962
9126.92  0.6506437
9128.19  0.650815
9129.45  0.6491212
9130.72  0.6486632
9131.98  0.6480489
9133.25  0.6473612
9134.52  0.6463114
9135.78  0.6450093
9137.05  0.6432275
9138.31  0.6400878
9139.58  0.6404769
9140.84  0.6418822
9142.11  0.6424673
9143.37  0.642872
9144.64  0.6420149
9145.90  0.6412311
9147.17  0.6409882
9148.43  0.6412562
9149.70  0.6410289
9150.96  0.6402062
9152.23  0.6399738
9153.49  0.6398583
9154.76  0.6395023
9156.03  0.6396629
9157.29  0.6396521
9158.56  0.6393062
9159.82  0.6376051
9161.09  0.6371921
9162.35  0.6370501
9163.62  0.6363695
9164.88  0.63612
9166.15  0.635551
9167.41  0.6347387
9168.68  0.6350618
9169.94  0.6339613
9171.21  0.6319864
9172.47  0.6322342
9173.74  0.6319172
9175.00  0.6323353
9176.27  0.6313818
9177.53  0.630217
9178.80  0.6293713
9180.07  0.6283202
9181.33  0.6272514
9182.60  0.6265808
9183.86  0.6257835
9185.13  0.6258976
9186.39  0.6244304
9187.66  0.623843
9188.92  0.6230798
9190.19  0.6228521
9191.45  0.6220126
9192.72  0.6216165
9193.98  0.6203583
9195.25  0.6205115
9196.51  0.6188053
9197.78  0.6176803
9199.04  0.6165442
9200.31  0.6159878
9201.58  0.6142176
9202.84  0.6138967
9204.11  0.6131043
9205.37  0.6126206
9206.64  0.6112503
9207.90  0.6098836
9209.17  0.6084139
9210.43  0.6084883
9211.70  0.6085535
9212.96  0.6065828
9214.23  0.6057376
9215.49  0.6052577
9216.76  0.6045054
9218.02  0.6031272
9219.29  0.6019606
9220.55  0.6000676
9221.82  0.5989285
9223.09  0.5981619
9224.35  0.5966637
9225.62  0.5956249
9226.88  0.5931724
9228.15  0.5925485
9229.41  0.5921637
9230.68  0.5897947
9231.94  0.5878663
9233.21  0.5883538
9234.47  0.586502
9235.74  0.5844448
9237.00  0.5826203
9238.27  0.5807138
9239.53  0.5787289
9240.80  0.5764365
9242.06  0.5746128
9243.33  0.5730259
9244.60  0.5716427
9245.86  0.5685313
9247.13  0.5658579
9248.39  0.5642997
9249.66  0.5621217
9250.92  0.5593067
9252.19  0.5572594
9253.45  0.5547573
9254.72  0.5517444
9255.98  0.5494496
9257.25  0.5451456
9258.51  0.5406703
9259.78  0.5378348
9261.04  0.5340357
9262.31  0.5303075
9263.57  0.5249397
9264.84  0.5194002
9266.11  0.5153418
9267.37  0.5084262
9268.64  0.5014855
9269.90  0.494197
9271.17  0.4873729
9272.43  0.4808479
9273.70  0.472849
9274.96  0.4647425
9276.23  0.4548026
9277.49  0.4454624
9278.76  0.434668
9280.02  0.4239547
9281.29  0.4122984
9282.55  0.4007869
9283.82  0.389488
9285.08  0.3765467
9286.35  0.3636607
9287.61  0.3498469
9288.88  0.3372679
9290.15  0.3252002
9291.41  0.3119693
9292.68  0.2985472
9293.94  0.2854033
9295.21  0.2727487
9296.47  0.2601504
9297.74  0.2478727
9299.00  0.2353564
9300.27  0.2231954
9301.53  0.2115124
9302.80  0.2004168
9304.06  0.1897713
9305.33  0.1796168
9306.59  0.1702709
9307.86  0.161133
9309.12  0.1525941
9310.39  0.1450868
9311.66  0.1374167
9312.92  0.1299919
9314.19  0.1233588
9315.45  0.1170413
9316.72  0.111204
9317.98  0.1060287
9319.25  0.1011443
9320.51  0.09623539
9321.78  0.09171968
9323.04  0.08707336
9324.31  0.08319751
9325.57  0.08038639
9326.84  0.0770505
9328.10  0.0738041
9329.37  0.0711648
9330.63  0.06849283
9331.90  0.06595724
9333.17  0.06394477
9334.43  0.06155039
9335.70  0.05943382
9336.96  0.05773453
9338.23  0.05586262
9339.49  0.05392331
9340.76  0.05247837
9342.02  0.05097533
9343.29  0.04942936
9344.55  0.04824978
9345.82  0.04668424
9347.08  0.04555622
9348.35  0.04383746
9349.61  0.04250445
9350.88  0.04157454
9352.14  0.04069441
9353.41  0.03955574
9354.68  0.03883928
9355.94  0.03792571
9357.21  0.03676276
9358.47  0.03592162
9359.74  0.03544987
9361.00  0.03453488
9362.27  0.03364638
9363.53  0.0327318
9364.80  0.03182785
9366.06  0.03144151
9367.33  0.0308658
9368.59  0.0300818
9369.86  0.02943592
9371.12  0.02869041
9372.39  0.02826262
9373.65  0.02786679
9374.92  0.02726162
9376.19  0.02679747
9377.45  0.02613276
9378.72  0.02579821
9379.98  0.02520013
9381.25  0.02432133
9382.51  0.02390935
9383.78  0.02379315
9385.04  0.02356496
9386.31  0.02309219
9387.57  0.02231723
9388.84  0.02178146
9390.10  0.0212848
9391.37  0.02093909
9392.63  0.02028241
9393.90  0.01992543
9395.16  0.01998012
9396.43  0.01970374
9397.70  0.01916633
9398.96  0.01903074
9400.23  0.01853946
9401.49  0.01829348
9402.76  0.0180925
9404.02  0.01781661
9405.29  0.01729399
9406.55  0.01714341
9407.82  0.01687829
9409.08  0.01654047
9410.35  0.01640503
9411.61  0.01612903
9412.88  0.01579455
9414.14  0.01534318
9415.41  0.01551516
9416.67  0.01524141
9417.94  0.01465572
9419.20  0.01435902
9420.47  0.01435892
9421.74  0.01419452
9423.00  0.01405825
9424.27  0.01390511
9425.53  0.0136587
9426.80  0.01342456
9428.06  0.01328875
9429.33  0.0132308
9430.59  0.01304709
9431.86  0.01278733
9433.12  0.01259192
9434.39  0.01254451
9435.65  0.01218812
9436.92  0.01198828
9438.18  0.01206693
9439.45  0.01194228
9440.71  0.01165995
9441.98  0.01133116
9443.25  0.0110162
9444.51  0.01116776
9445.78  0.01107741
9447.04  0.01080516
9448.31  0.01054064
9449.57  0.01050743
9450.84  0.01061847
9452.10  0.01045551
9453.37  0.01026479
9454.63  0.01018899
9455.90  0.01008341
9457.16  0.009769288
9458.43  0.009618016
9459.69  0.009496748
9460.96  0.009285019
9462.22  0.009242307
9463.49  0.00928494
9464.76  0.009200237
9466.02  0.009030418
9467.29  0.009004368
9468.55  0.0088747
9469.82  0.008761289
9471.08  0.008581694
9472.35  0.008526701
9473.61  0.008529077
9474.88  0.008383002
9476.14  0.008261337
9477.41  0.00817861
9478.67  0.008150766
9479.94  0.008111329
9481.20  0.007908744
9482.47  0.007914136
9483.73  0.007842032
9485.00  0.007658362
9486.27  0.007531702
9487.53  0.007358093
9488.80  0.00731239
9490.06  0.007377449
9491.33  0.007249514
9492.59  0.007074464
9493.86  0.00703987
9495.12  0.007032054
9496.39  0.006995035
9497.65  0.006792659
9498.92  0.006732168
9500.18  0.00684159
9501.45  0.006737567
9502.71  0.006519305
9503.98  0.006401147
9505.24  0.006435355
9506.51  0.00641914
9507.78  0.00629529
9509.04  0.006262679
9510.31  0.006187451
9511.57  0.00613
9512.84  0.006112618
9514.10  0.005972833
9515.37  0.005894348
9516.63  0.005870706
9517.90  0.005871508
9519.16  0.005738925
9520.43  0.005621979
9521.69  0.005589839
9522.96  0.005606836
9524.22  0.005662248
9525.49  0.005464096
9526.75  0.005458762
9528.02  0.005416355
9529.28  0.005354259
9530.55  0.005318869
9531.82  0.005250454
9533.08  0.005078326
9534.35  0.005000828
9535.61  0.005023215
9536.88  0.004954933
9538.14  0.004957621
9539.41  0.005006142
9540.67  0.00495019
9541.94  0.004837938
9543.20  0.004680963
9544.47  0.004576732
9545.73  0.004715497
9547.00  0.004652471
9548.26  0.00461268
9549.53  0.004475778
9550.79  0.004445135
9552.06  0.004439984
9553.33  0.004479266
9554.59  0.004424735
9555.86  0.004378367
9557.12  0.004230282
9558.39  0.004198864
9559.65  0.00416846
9560.92  0.004137103
9562.18  0.003965274
9563.45  0.004136993
9564.71  0.003960884
9565.98  0.003949728
9567.24  0.003976182
9568.51  0.0038045
9569.77  0.003789359
9571.04  0.003854758
9572.30  0.003654562
9573.57  0.00381673
9574.84  0.003690571
9576.10  0.003574805
9577.37  0.003657491
9578.63  0.003674394
9579.90  0.003514538
9581.16  0.003449812
9582.43  0.003379596
9583.69  0.003220135
9584.96  0.003400387
9586.22  0.003419624
9587.49  0.003416648
9588.75  0.0033187
9590.02  0.003227752
9591.28  0.003174395
9592.55  0.003055115
9593.81  0.003082378
9595.08  0.003146226
9596.35  0.003000611
9597.61  0.002990013
9598.88  0.003065972
9600.14  0.002970068
9601.41  0.0028934
9602.67  0.002979675
9603.94  0.002990006
9605.20  0.002993855
9606.47  0.002947037
9607.73  0.002922796
9609.00  0.002945033
9610.26  0.002892027
9611.53  0.002756308
9612.79  0.002794507
9614.06  0.00274881
9615.32  0.002642134
9616.59  0.002607201
9617.86  0.00262709
9619.12  0.002530623
9620.39  0.002638085
9621.65  0.002691495
9622.92  0.002497334
9624.18  0.002479033
9625.45  0.00258425
9626.71  0.002407619
9627.98  0.002332371
9629.24  0.002327809
9630.51  0.002337063
9631.77  0.002365508
9633.04  0.002307394
9634.30  0.002347359
9635.57  0.002210479
9636.83  0.00212255
9638.10  0.002112739
9639.36  0.00225347
9640.63  0.002300873
9641.90  0.002148054
9643.16  0.002140696
9644.43  0.002193091
9645.69  0.002131574
9646.96  0.002095284
9648.22  0.00203097
9649.49  0.002166386
9650.75  0.002071449
9652.02  0.001975655
9653.28  0.001974109
9654.55  0.001945794
9655.81  0.001960885
9657.08  0.002049881
9658.34  0.002023189
9659.61  0.001880135
9660.87  0.001856607
9662.14  0.001866605
9663.41  0.001863869
9664.67  0.001800917
9665.94  0.001872051
9667.20  0.001844332
9668.47  0.001734168
9669.73  0.001793138
9671.00  0.001878203
9672.26  0.001786436
9673.53  0.001663335
9674.79  0.001670663
9676.06  0.001719159
9677.32  0.001720853
9678.59  0.001691246
9679.85  0.001722709
9681.12  0.00164831
9682.38  0.001585034
9683.65  0.00160252
9684.92  0.001550881
9686.18  0.00156323
9687.45  0.001655582
9688.71  0.001626201
9689.98  0.00155414
9691.24  0.001529624
9692.51  0.001461735
9693.77  0.001460506
9695.04  0.001501053
9696.30  0.001459959
9697.57  0.001529779
9698.83  0.001530729
9700.10  0.001428017
9701.36  0.001387786
9702.63  0.001347729
9703.89  0.001496044
9705.16  0.001472173
9706.43  0.001338167
9707.69  0.001408593
9708.96  0.001424323
9710.22  0.001392926
9711.49  0.001384269
9712.75  0.001364104
9714.02  0.001396638
9715.28  0.001405291
9716.55  0.001386634
9717.81  0.001340776
9719.08  0.001359669
9720.34  0.001336716
9721.61  0.001387528
9722.87  0.001468068
9724.14  0.001343083
9725.40  0.001325301
9726.67  0.001245059
9727.94  0.001198025
9729.20  0.001355317
9730.47  0.00132952
9731.73  0.001299021
9733.00  0.001328046
9734.26  0.001351939
9735.53  0.001375654
9736.79  0.001228397
9738.06  0.001197997
9739.32  0.00134403
9740.59  0.001389332
9741.85  0.00135204
9743.12  0.001178543
9744.38  0.00113227
9745.65  0.001059943
9746.91  0.001253093
9748.18  0.001347268
9749.44  0.001147672
9750.71  0.001190437
9751.98  0.001325328
9753.24  0.001178068
9754.51  0.001215912
9755.77  0.001094488
9757.04  9.257262E-4
9758.30  0.001030711
9759.57  0.001056911
9760.83  0.001086371
9762.10  0.001029429
9763.36  0.001079637
9764.63  0.001096451
9765.89  0.001063313
9767.16  0.001128842
9768.42  0.001060162
9769.69  0.001052763
9770.95  0.001120369
9772.22  9.919944E-4
9773.49  9.526671E-4
9774.75  0.001075132
9776.02  0.001082589
9777.28  0.001110809
9778.55  0.001124287
9779.81  0.001144305
9781.08  9.314304E-4
9782.34  9.875429E-4
9783.61  0.001034742
9784.87  9.106629E-4
9786.14  0.00106228
9787.40  0.001038471
9788.67  8.893381E-4
9789.93  0.001000626
9791.20  9.032752E-4
9792.46  9.367673E-4
9793.73  9.145924E-4
9795.00  8.903190E-4
9796.26  9.155133E-4
9797.53  9.512672E-4
9798.79  9.571468E-4
9800.06  0.001053285
9801.32  9.636701E-4
9802.59  9.332077E-4
9803.85  8.634237E-4
9805.12  9.749182E-4
9806.38  8.774347E-4
9807.65  0.001027921
9808.91  9.903477E-4
9810.18  9.507848E-4
9811.44  9.320863E-4
9812.71  0.001025644
9813.97  0.001056834
9815.24  9.460107E-4
9816.51  9.502519E-4
9817.77  8.792686E-4
9819.04  9.348671E-4
9820.30  9.550856E-4
9821.57  9.068188E-4
9822.83  9.816333E-4
9824.10  8.282892E-4
9825.36  9.335900E-4
9826.63  8.874940E-4
9827.89  7.410815E-4
9829.16  8.396566E-4
9830.42  8.420743E-4
9831.69  8.605506E-4
9832.95  9.471635E-4
9834.22  8.979338E-4
9835.48  7.394840E-4
9836.75  7.009534E-4
9838.02  7.720023E-4
9839.28  8.016225E-4
9840.55  8.764515E-4
9841.81  9.229237E-4
9843.08  8.376469E-4
9844.34  7.705041E-4
9845.61  8.843243E-4
9846.87  8.474410E-4
9848.14  6.844401E-4
9849.40  7.983819E-4
9850.67  8.586046E-4
9851.93  8.208190E-4
9853.20  7.623621E-4
9854.46  7.676118E-4
9855.73  7.808243E-4
9856.99  7.577760E-4
9858.26  9.013405E-4
9859.52  7.853594E-4
9860.79  6.658068E-4
9862.06  7.158689E-4
9863.32  7.244211E-4
9864.59  8.078339E-4
9865.85  8.011776E-4
9867.12  7.880599E-4
9868.38  7.553704E-4
9869.65  6.432865E-4
9870.91  7.209076E-4
9872.18  7.476608E-4
9873.44  7.092787E-4
9874.71  6.755432E-4
9875.97  8.044084E-4
9877.24  7.861995E-4
9878.50  6.491096E-4
9879.77  6.553303E-4
9881.03  7.156776E-4
9882.30  7.262469E-4
9883.57  6.872057E-4
9884.83  6.473880E-4
9886.10  7.327389E-4
9887.36  7.485239E-4
9888.63  6.346744E-4
9889.89  7.516430E-4
9891.16  7.812095E-4
9892.42  7.756006E-4
9893.69  7.491247E-4
9894.95  7.025130E-4
9896.22  7.028042E-4
9897.48  6.229716E-4
9898.75  6.495899E-4
9900.01  7.343128E-4
9901.28  6.415010E-4
9902.54  5.459317E-4
9903.81  6.215331E-4
9905.08  6.378950E-4
9906.34  6.061597E-4
9907.61  5.915507E-4
9908.87  6.584243E-4
9910.14  6.911751E-4
9911.40  6.588176E-4
9912.67  6.467919E-4
9913.93  6.810257E-4
9915.20  5.839383E-4
9916.46  6.362834E-4
9917.73  7.215738E-4
9918.99  6.106766E-4
9920.26  6.045376E-4
9921.52  6.898017E-4
9922.79  5.942594E-4
9924.05  6.752276E-4
9925.32  6.126543E-4
9926.59  5.286831E-4
9927.85  4.868747E-4
9929.12  6.300448E-4
9930.38  6.733766E-4
9931.65  4.202494E-4
9932.91  5.198403E-4
9934.18  5.960849E-4
9935.44  6.749716E-4
9936.71  6.695323E-4
9937.97  4.926547E-4
9939.24  4.272335E-4
9940.50  4.859499E-4
9941.77  5.639871E-4
9943.03  5.003356E-4
9944.30  6.035873E-4
9945.56  5.774283E-4
9946.83  5.488400E-4
9948.10  5.313818E-4
9949.36  3.919714E-4
9950.63  3.415978E-4
9951.89  4.009839E-4
9953.16  4.269046E-4
9954.42  6.703866E-4
9955.69  7.993901E-4
9956.95  5.625698E-4
9958.22  6.489300E-4
9959.48  4.401412E-4
9960.75  5.047607E-4
9962.01  6.507036E-4
9963.28  4.873851E-4
9964.54  4.321176E-4
9965.81  3.926517E-4
9967.07  4.381389E-4
9968.34  5.789186E-4
9969.60  7.078840E-4
9970.87  5.082706E-4
9972.14  3.468129E-4
9973.40  3.696660E-4
9974.67  3.486694E-4
9975.93  5.090823E-4
9977.20  5.547865E-4
9978.46  4.935681E-4
9979.73  3.693904E-4
9980.99  4.245161E-4
9982.26  4.930131E-4
9983.52  6.738399E-4
9984.79  6.845944E-4
9986.05  6.559388E-4
9987.32  3.959629E-4
9988.58  4.476022E-4
9989.85  4.984410E-4
9991.11  4.480011E-4
9992.38  4.598970E-4
9993.65  4.656978E-4
9994.91  3.624239E-4
9996.18  4.415019E-4
9997.44  3.292583E-4
9998.71  4.284889E-4
9999.97  5.096273E-4
10001.24  4.917565E-4
10002.50  4.353423E-4
10003.77  5.006657E-4
10005.03  3.779007E-4
10006.30  4.317665E-4
10007.56  4.713336E-4
10008.83  5.883205E-4
10010.09  4.647665E-4
10011.36  3.247187E-4
10012.62  3.683081E-4
10013.89  4.387337E-4
10015.16  5.689604E-4
10016.42  4.566798E-4
10017.69  3.546915E-4
10018.95  5.658343E-4
10020.22  4.167108E-4
10021.48  3.099008E-4
10022.75  3.074335E-4
10024.01  4.745938E-4
10025.28  5.781353E-4
10026.54  5.991622E-4
10027.81  4.964166E-4
10029.07  5.651003E-4
10030.34  4.431096E-4
10031.60  4.706417E-4
10032.87  3.350638E-4
10034.13  1.857315E-4
10035.40  3.555019E-4
10036.67  5.645534E-4
10037.93  5.485571E-4
10039.20  6.915071E-4
10040.46  4.270820E-4
10041.73  4.808209E-4
10042.99  3.775125E-4
10044.26  4.527503E-4
10045.52  5.095159E-4
10046.79  5.975162E-4
10048.05  4.895999E-4
10049.32  4.277981E-4
10050.58  5.805240E-4
10051.85  4.900763E-4
10053.11  5.485250E-4
10054.38  4.423223E-4
10055.64  2.729909E-4
10056.91  3.609874E-4
10058.18  3.291420E-4
10059.44  2.959534E-4
10060.71  3.502294E-4
10061.97  2.012818E-4
10063.24  4.985323E-4
10064.50  4.126597E-4
10065.77  4.141665E-4
10067.03  3.498620E-4
10068.30  2.134933E-4
10069.56  5.156412E-4
10070.83  7.836132E-4
10072.09  4.959269E-4
10073.36  3.766458E-4
10074.62  3.695035E-4
10075.89  4.743467E-4
10077.15  3.283834E-4
10078.42  1.548241E-4
10079.68  4.542681E-4
10080.95  3.620744E-4
10082.22  2.590591E-4
10083.48  4.409121E-4
10084.75  3.696770E-4
10086.01  3.485343E-4
10087.28  4.948160E-4
10088.54  1.881289E-4
10089.81  3.909765E-4
10091.07  3.468933E-4
10092.34  7.226720E-4
10093.60  3.571946E-4
10094.87  2.830014E-4
10096.13  4.208407E-4
10097.40  5.251578E-4
10098.66  4.278907E-4
10099.93  2.512378E-4
10101.19  5.176007E-4
10102.46  1.809797E-4
10103.73  9.350140E-5
10104.99  3.401089E-4
10106.26  2.001542E-4
10107.52  3.998381E-4
10108.79  3.850805E-4
10110.05  2.313337E-4
10111.32  3.101321E-4
10112.58  4.539708E-4
10113.85  4.627524E-4
10115.11  3.097312E-4
10116.38  2.715717E-4
10117.64  8.760264E-5
10118.91  2.990391E-4
10120.17  4.823425E-4
10121.44  3.193869E-4
10122.70  3.507288E-4
10123.97  2.958679E-4
10125.24  3.313870E-4
10126.50  4.316892E-4
10127.77  2.808756E-4
10129.03  3.453117E-4
10130.30  4.768821E-4
10131.56  3.671734E-4
10132.83  6.671742E-4
10134.09  7.534801E-4
10135.36  3.163434E-4
10136.62  1.575629E-4
10137.89  2.627455E-4
10139.15  2.424130E-4
10140.42  3.204258E-4
10141.68  2.908222E-4
10142.95  4.052348E-4
10144.21  5.348446E-4
10145.48  5.966810E-4
10146.75  3.814750E-4
10148.01  2.668726E-4
10149.28  3.454903E-4
10150.54  4.491701E-4
10151.81  5.586119E-4
10153.07  4.010645E-4
10154.34  1.942509E-4
10155.60  4.792878E-4
10156.87  4.460604E-4
10158.13  2.928247E-4
10159.40  3.582395E-4
10160.66  4.671962E-4
10161.93  5.743402E-4
10163.19  6.751800E-4
10164.46  5.711747E-4
10165.72  4.431205E-4
10166.99  3.794655E-4
10168.26  3.433866E-4
10169.52  3.588834E-4
10170.79  4.881952E-4
10172.05  2.403910E-4
10173.32  2.252914E-4
10174.58  2.962506E-4
10175.85  2.332232E-4
10177.11  3.176776E-4
10178.38  4.502110E-4
10179.64  5.781460E-4
10180.91  5.519720E-4
10182.17  5.916395E-4
10183.44  7.096217E-4
10184.70  3.274065E-4
10185.97  2.462881E-4
10187.23  4.601476E-4
10188.50  5.495290E-4
10189.76  6.537326E-4
10191.03  4.785168E-4
10192.30  2.311720E-4
10193.56  8.237558E-5
10194.83  4.301791E-4
10196.09  5.866043E-4
10197.36  4.019083E-4
10198.62  4.241815E-4
10199.89  4.511121E-4
10201.15  4.874886E-4
10202.42  3.687484E-4
10203.68  3.218061E-4
10204.95  1.683509E-4
10206.21  2.864419E-4
10207.48  8.418542E-5
10208.74  4.233120E-4
10210.01  3.745653E-4
10211.27  7.348311E-4
10212.54  4.406251E-4
10213.81  2.962023E-4
10215.07  3.021024E-4
10216.34  2.297587E-4
10217.60  4.143087E-4
10218.87  5.830082E-4
10220.13  3.589152E-4
10221.40  8.227700E-5
10222.66  4.734118E-4
10223.93  7.164123E-4
10225.19  3.189949E-4
10226.46  2.166807E-4
10227.72  1.117193E-4
10228.99  1.900928E-4
10230.25  2.176894E-4
10231.52  1.293804E-4
10232.78  2.122859E-4
10234.05  6.195146E-4
10235.32  5.523223E-4
10236.58  6.694903E-4
10237.85  3.353485E-4
10239.11  1.765396E-4
10240.38  3.748245E-4
10241.64  4.883101E-4
10242.91  3.017520E-4
10244.17  4.702591E-4
10245.44  5.926744E-4
10246.70  3.722662E-4
10247.97  3.770197E-4
10249.23  4.907129E-4
10250.50  6.582065E-4
10251.76  6.183542E-4
10253.03  5.810214E-4
10254.29  6.831277E-4
10255.56  5.783285E-4
10256.83  4.596671E-4
10258.09  1.478264E-4
10259.36  2.624863E-4
10260.62  3.211816E-4
10261.89  4.122544E-4
10263.15  3.701183E-4
10264.42  2.202138E-4
10265.68  5.823297E-4
10266.95  4.162207E-4
10268.21  3.452770E-4
10269.48  5.965063E-4
10270.74  7.358639E-4
10272.01  5.835294E-4
10273.27  2.088679E-4
10274.54  2.723606E-4
10275.80  5.638608E-4
10277.07  7.799335E-4
10278.34  5.194847E-4
10279.60  4.949808E-4
10280.87  6.919554E-4
10282.13  2.719103E-4
10283.40  3.249276E-4
10284.66  4.776255E-4
10285.93  4.758857E-4
10287.19  6.901808E-4
10288.46  8.951432E-4
10289.72  7.639610E-4
10290.99  4.701720E-4
10292.25  3.412043E-4
10293.52  5.166575E-4
10294.78  4.375879E-4
10296.05  7.929088E-4
10297.31  1.440417E-4
10298.58  2.631476E-4
10299.84  8.628592E-4
10301.11  6.658230E-4
10302.38  1.765278E-4
10303.64  6.460812E-4
10304.91  8.790247E-4
10306.17  5.894100E-4
10307.44  3.523400E-4
10308.70  4.025165E-4
10309.97  7.159482E-4
10311.23  3.202081E-4
10312.50  -1.236298E-4
10313.76  1.592653E-4
10315.03  8.043098E-4
10316.29  7.420189E-4
10317.56  6.305776E-4
10318.82  4.433674E-4
10320.09  7.131418E-4
10321.35  7.534934E-4
10322.62  6.496816E-4
10323.89  2.586829E-4
10325.15  2.163744E-4
10326.42  5.974175E-4
10327.68  7.376357E-4
10328.95  5.288828E-4
10330.21  0.001005303
10331.48  4.613022E-4
10332.74  4.042066E-4
10334.01  0.001079999
10335.27  9.770071E-4
10336.54  9.708835E-4
10337.80  6.855274E-4
10339.07  4.234297E-4
10340.33  5.988957E-4
10341.60  3.740855E-4
10342.86  3.115044E-4
10344.13  5.293695E-4
10345.40  3.416550E-4
10346.66  7.241215E-4
10347.93  0.001271287
10349.19  0.001030278
10350.46  6.063771E-4
10351.72  3.777237E-4
10352.99  9.581652E-4
10354.25  7.236475E-4
10355.52  5.185990E-4
10356.78  9.906064E-4
10358.05  8.079860E-4
10359.31  3.859067E-4
10360.58  3.338578E-4
10361.84  1.780979E-4
10363.11  8.290908E-4
10364.37  0.001374735
10365.64  8.602944E-4
10366.91  3.310436E-4
10368.17  5.220231E-4
10369.44  7.900575E-4
10370.70  6.381994E-4
10371.97  5.786597E-4
10373.23  9.257813E-4
10374.50  0.001068834
10375.76  7.158271E-4
10377.03  4.691487E-4
10378.29  5.822053E-4
10379.56  8.493893E-4
10380.82  3.659395E-4
10382.09  0.001062579
10383.35  9.147363E-4
10384.62  0.001110288
10385.88  8.268525E-4
10387.15  0.001011189
10388.42  0.001186095
10389.68  8.216964E-4
10390.95  0.001012508
10392.21  6.032594E-4
10393.48  0.001215537
10394.74  0.001140813
10396.01  0.001265662
10397.27  4.339699E-4
10398.54  5.414058E-4
10399.80  0.001069671
10401.07  8.459510E-4
10402.33  8.441981E-4
10403.60  7.679331E-4
10404.86  8.583436E-4
10406.13  0.001014646
10407.39  6.814551E-4
10408.66  0.001097778
10409.92  0.00121937
10411.19  0.001217488
