# R filter from Dave & Anne
#      WAVELENGTH      THROUGHPUT
#       angstroms         
5400 0.00
5410 0.00
5420 1.71
5430 1.75
5440 1.73
5450 1.76
5460 1.83
5470 1.95
5480 2.17
5490 2.53
5500 3.16
5510 4.08
5520 5.45
5530 7.26
5540 9.68
5550 12.62
5560 16.06
5570 19.97
5580 24.30
5590 28.76
5600 33.50
5610 38.22
5620 42.88
5630 47.39
5640 51.83
5650 55.82
5660 59.58
5670 63.04
5680 66.24
5690 68.94
5700 71.20
5710 73.26
5720 74.98
5730 76.53
5740 77.66
5750 78.74
5760 79.39
5770 80.17
5780 80.55
5790 81.21
5800 81.68
5810 82.07
5820 82.53
5830 83.03
5840 83.44
5850 84.15
5860 84.66
5870 85.38
5880 86.13
5890 86.75
5900 87.59
5910 88.34
5920 89.12
5930 89.74
5940 90.44
5950 91.22
5960 91.73
5970 92.24
5980 92.64
5990 92.89
6000 93.18
6010 93.36
6020 93.31
6030 93.17
6040 92.97
6050 92.82
6060 92.56
6070 92.14
6080 91.89
6090 91.56
6100 91.08
6110 90.77
6120 90.42
6130 90.10
6140 89.96
6150 89.88
6160 89.74
6170 89.61
6180 89.66
6190 89.75
6200 89.93
6210 90.03
6220 90.28
6230 90.64
6240 90.90
6250 91.09
6260 91.43
6270 91.68
6280 92.16
6290 92.38
6300 92.58
6310 92.89
6320 93.14
6330 93.37
6340 93.53
6350 93.60
6360 93.72
6370 93.71
6380 93.79
6390 93.77
6400 93.56
6410 93.41
6420 93.33
6430 93.27
6440 93.11
6450 93.03
6460 92.89
6470 92.88
6480 92.83
6490 92.69
6500 92.76
6510 92.70
6520 92.81
6530 92.69
6540 92.78
6550 93.03
6560 93.00
6570 93.02
6580 93.38
6590 93.51
6600 93.69
6610 93.88
6620 93.96
6630 94.23
6640 94.24
6650 94.30
6660 94.43
6670 94.55
6680 94.51
6690 94.47
6700 94.32
6710 94.20
6720 94.26
6730 94.16
6740 93.88
6750 93.67
6760 93.56
6770 93.30
6780 93.01
6790 92.92
6800 92.76
6810 92.61
6820 92.25
6830 92.08
6840 92.05
6850 92.12
6860 91.87
6870 91.72
6880 91.77
6890 91.86
6900 91.79
6910 91.58
6920 91.50
6930 91.80
6940 91.82
6950 91.49
6960 91.37
6970 91.54
6980 91.48
6990 91.15
7000 90.68
7010 90.39
7020 90.43
7030 89.91
7040 89.18
7050 88.75
7060 88.37
7070 87.86
7080 87.00
7090 86.15
7100 85.72
7110 85.24
7120 84.40
7130 83.65
7140 83.12
7150 82.75
7160 82.26
7170 81.46
7180 80.95
7190 80.66
7200 80.39
7210 79.96
7220 79.07
7230 78.55
7240 77.95
7250 76.98
7260 75.54
7270 73.70
7280 71.93
7290 69.53
7300 66.50
7310 62.90
7320 59.07
7330 55.19
7340 50.95
7350 46.40
7360 41.76
7370 37.49
7380 33.61
7390 29.93
7400 26.37
7410 23.15
7420 20.36
7430 18.04
7440 15.94
7450 14.02
7460 12.32
7470 10.87
7480 9.67
7490 8.67
7500 7.74
7510 6.87
7520 6.11
7530 5.51
7540 4.99
7550 4.56
7560 4.11
7570 3.72
7580 3.37
7590 3.12
7600 2.89
7610 2.67
7620 2.44
7630 2.26
7640 2.12
7650 2.00
7660 1.88
7670 1.76
7680 1.64
7690 1.55
7700 1.48
7710 1.41
7720 1.34
7730 1.28
7740 1.21
7750 1.16
7760 1.13
7770 1.10
7780 0.00
7790 0.00

